SpectraSuite Data File
++++++++++++++++++++++++++++++++++++
Date: Sun Oct 24 12:56:27 EEST 2021
User: CI-SYSTEMS
Dark Spectrum Present: No
Reference Spectrum Present: No
Number of Sampled Component Spectra: 1
Spectrometers: USB4F10354
Integration Time (usec): 7000 (USB4F10354)
Spectra Averaged: 1 (USB4F10354)
Boxcar Smoothing: 0 (USB4F10354)
Correct for Electrical Dark: No (USB4F10354)
Strobe/Lamp Enabled: No (USB4F10354)
Correct for Detector Non-linearity: No (USB4F10354)
Correct for Stray Light: No (USB4F10354)
Number of Pixels in Processed Spectrum: 3648
>>>>>Begin Processed Spectral Data<<<<<
196.05	1368.04
196.27	1368.04
196.48	1368.04
196.70	1361.90
196.92	1331.18
197.14	1402.86
197.36	1441.77
197.58	1437.67
197.80	1411.05
198.02	1363.95
198.24	1398.76
198.46	1404.91
198.68	1357.80
198.89	1349.61
199.11	1388.52
199.33	1339.37
199.55	1347.56
199.77	1413.10
199.99	1423.34
200.21	1398.76
200.43	1433.58
200.65	1427.43
200.87	1386.47
201.09	1402.86
201.30	1417.19
201.52	1312.75
201.74	1472.49
201.96	1409.00
202.18	1339.37
202.40	1357.80
202.62	1406.95
202.84	1435.63
203.06	1415.15
203.27	1429.48
203.49	1378.28
203.71	1355.76
203.93	1431.53
204.15	1419.24
204.37	1372.14
204.59	1464.30
204.81	1400.81
205.03	1437.67
205.24	1325.04
205.46	1386.47
205.68	1482.73
205.90	1388.52
206.12	1335.28
206.34	1361.90
206.56	1495.02
206.78	1415.15
206.99	1368.04
207.21	1357.80
207.43	1406.95
207.65	1417.19
207.87	1439.72
208.09	1400.81
208.31	1411.05
208.53	1355.76
208.74	1427.43
208.96	1464.30
209.18	1456.11
209.40	1384.43
209.62	1400.81
209.84	1449.96
210.06	1454.06
210.27	1419.24
210.49	1398.76
210.71	1452.01
210.93	1357.80
211.15	1449.96
211.37	1386.47
211.59	1320.94
211.80	1353.71
212.02	1380.33
212.24	1425.39
212.46	1486.83
212.68	1435.63
212.90	1413.10
213.11	1374.19
213.33	1374.19
213.55	1427.43
213.77	1415.15
213.99	1464.30
214.21	1406.95
214.43	1400.81
214.64	1402.86
214.86	1409.00
215.08	1355.76
215.30	1337.32
215.52	1429.48
215.74	1382.38
215.95	1411.05
216.17	1449.96
216.39	1386.47
216.61	1359.85
216.83	1400.81
217.05	1423.34
217.26	1417.19
217.48	1470.44
217.70	1445.87
217.92	1458.15
218.14	1382.38
218.35	1353.71
218.57	1470.44
218.79	1366.00
219.01	1347.56
219.23	1359.85
219.45	1447.91
219.66	1454.06
219.88	1404.91
220.10	1441.77
220.32	1372.14
220.54	1449.96
220.75	1419.24
220.97	1376.24
221.19	1382.38
221.41	1376.24
221.63	1429.48
221.84	1374.19
222.06	1409.00
222.28	1423.34
222.50	1415.15
222.72	1331.18
222.94	1458.15
223.15	1388.52
223.37	1388.52
223.59	1449.96
223.81	1366.00
224.02	1357.80
224.24	1400.81
224.46	1433.58
224.68	1411.05
224.90	1376.24
225.11	1417.19
225.33	1406.95
225.55	1413.10
225.77	1421.29
225.99	1337.32
226.20	1472.49
226.42	1419.24
226.64	1390.57
226.86	1380.33
227.08	1425.39
227.29	1327.08
227.51	1409.00
227.73	1396.71
227.95	1490.92
228.16	1382.38
228.38	1409.00
228.60	1427.43
228.82	1376.24
229.04	1462.25
229.25	1411.05
229.47	1345.52
229.69	1417.19
229.91	1413.10
230.12	1456.11
230.34	1421.29
230.56	1302.51
230.78	1423.34
230.99	1392.62
231.21	1443.82
231.43	1433.58
231.65	1398.76
231.86	1454.06
232.08	1425.39
232.30	1413.10
232.52	1456.11
232.74	1468.39
232.95	1398.76
233.17	1411.05
233.39	1406.95
233.61	1458.15
233.82	1409.00
234.04	1443.82
234.26	1392.62
234.48	1396.71
234.69	1478.63
234.91	1402.86
235.13	1406.95
235.35	1355.76
235.56	1392.62
235.78	1421.29
236.00	1413.10
236.21	1497.07
236.43	1425.39
236.65	1402.86
236.87	1366.00
237.08	1452.01
237.30	1347.56
237.52	1372.14
237.74	1388.52
237.95	1437.67
238.17	1417.19
238.39	1409.00
238.61	1361.90
238.82	1406.95
239.04	1386.47
239.26	1390.57
239.47	1409.00
239.69	1390.57
239.91	1419.24
240.13	1390.57
240.34	1331.18
240.56	1411.05
240.78	1388.52
241.00	1478.63
241.21	1419.24
241.43	1437.67
241.65	1337.32
241.86	1417.19
242.08	1503.21
242.30	1505.26
242.51	1488.87
242.73	1406.95
242.95	1435.63
243.17	1417.19
243.38	1392.62
243.60	1404.91
243.82	1439.72
244.03	1402.86
244.25	1392.62
244.47	1351.66
244.69	1386.47
244.90	1449.96
245.12	1437.67
245.34	1423.34
245.55	1366.00
245.77	1359.85
245.99	1372.14
246.20	1439.72
246.42	1386.47
246.64	1425.39
246.85	1478.63
247.07	1409.00
247.29	1390.57
247.51	1417.19
247.72	1374.19
247.94	1386.47
248.16	1456.11
248.37	1417.19
248.59	1429.48
248.81	1437.67
249.02	1398.76
249.24	1419.24
249.46	1380.33
249.67	1409.00
249.89	1464.30
250.11	1400.81
250.32	1404.91
250.54	1431.53
250.76	1378.28
250.97	1454.06
251.19	1431.53
251.41	1409.00
251.62	1411.05
251.84	1353.71
252.06	1419.24
252.27	1368.04
252.49	1435.63
252.71	1417.19
252.92	1329.13
253.14	1376.24
253.36	1409.00
253.57	1429.48
253.79	1384.43
254.01	1464.30
254.22	1411.05
254.44	1386.47
254.66	1425.39
254.87	1413.10
255.09	1331.18
255.31	1449.96
255.52	1433.58
255.74	1439.72
255.96	1470.44
256.17	1400.81
256.39	1406.95
256.60	1386.47
256.82	1423.34
257.04	1359.85
257.25	1431.53
257.47	1392.62
257.69	1394.67
257.90	1378.28
258.12	1394.67
258.34	1425.39
258.55	1462.25
258.77	1396.71
258.98	1368.04
259.20	1439.72
259.42	1417.19
259.63	1441.77
259.85	1413.10
260.07	1417.19
260.28	1398.76
260.50	1488.87
260.72	1359.85
260.93	1419.24
261.15	1396.71
261.36	1361.90
261.58	1470.44
261.80	1366.00
262.01	1370.09
262.23	1427.43
262.44	1454.06
262.66	1394.67
262.88	1462.25
263.09	1417.19
263.31	1511.40
263.53	1476.59
263.74	1445.87
263.96	1425.39
264.17	1396.71
264.39	1417.19
264.61	1396.71
264.82	1357.80
265.04	1490.92
265.25	1452.01
265.47	1396.71
265.69	1415.15
265.90	1392.62
266.12	1456.11
266.33	1390.57
266.55	1376.24
266.77	1396.71
266.98	1390.57
267.20	1492.97
267.41	1382.38
267.63	1398.76
267.85	1411.05
268.06	1380.33
268.28	1409.00
268.49	1431.53
268.71	1343.47
268.92	1419.24
269.14	1458.15
269.36	1413.10
269.57	1394.67
269.79	1406.95
270.00	1363.95
270.22	1386.47
270.43	1396.71
270.65	1404.91
270.87	1415.15
271.08	1411.05
271.30	1402.86
271.51	1329.13
271.73	1435.63
271.95	1366.00
272.16	1495.02
272.38	1382.38
272.59	1398.76
272.81	1490.92
273.02	1386.47
273.24	1349.61
273.45	1409.00
273.67	1435.63
273.89	1368.04
274.10	1452.01
274.32	1415.15
274.53	1449.96
274.75	1427.43
274.96	1421.29
275.18	1406.95
275.39	1425.39
275.61	1398.76
275.83	1445.87
276.04	1443.82
276.26	1445.87
276.47	1419.24
276.69	1386.47
276.90	1394.67
277.12	1443.82
277.33	1454.06
277.55	1437.67
277.76	1382.38
277.98	1445.87
278.20	1386.47
278.41	1447.91
278.63	1376.24
278.84	1370.09
279.06	1472.49
279.27	1396.71
279.49	1421.29
279.70	1404.91
279.92	1366.00
280.13	1357.80
280.35	1441.77
280.56	1368.04
280.78	1466.35
280.99	1382.38
281.21	1480.68
281.43	1402.86
281.64	1409.00
281.86	1417.19
282.07	1409.00
282.29	1370.09
282.50	1370.09
282.72	1443.82
282.93	1449.96
283.15	1390.57
283.36	1421.29
283.58	1357.80
283.79	1486.83
284.01	1466.35
284.22	1454.06
284.44	1419.24
284.65	1398.76
284.87	1482.73
285.08	1390.57
285.30	1400.81
285.51	1404.91
285.73	1417.19
285.94	1427.43
286.16	1433.58
286.37	1443.82
286.59	1437.67
286.80	1437.67
287.02	1482.73
287.23	1396.71
287.45	1329.13
287.66	1480.68
287.88	1423.34
288.09	1447.91
288.31	1419.24
288.52	1495.02
288.74	1423.34
288.95	1441.77
289.17	1376.24
289.38	1411.05
289.60	1386.47
289.81	1439.72
290.03	1447.91
290.24	1429.48
290.45	1419.24
290.67	1423.34
290.88	1492.97
291.10	1484.78
291.31	1413.10
291.53	1441.77
291.74	1380.33
291.96	1476.59
292.17	1376.24
292.39	1359.85
292.60	1366.00
292.82	1464.30
293.03	1417.19
293.25	1413.10
293.46	1466.35
293.68	1480.68
293.89	1419.24
294.10	1400.81
294.32	1390.57
294.53	1380.33
294.75	1460.20
294.96	1413.10
295.18	1513.45
295.39	1429.48
295.61	1378.28
295.82	1464.30
296.04	1415.15
296.25	1460.20
296.46	1325.04
296.68	1382.38
296.89	1355.76
297.11	1368.04
297.32	1380.33
297.54	1435.63
297.75	1359.85
297.97	1390.57
298.18	1427.43
298.39	1439.72
298.61	1478.63
298.82	1474.54
299.04	1396.71
299.25	1382.38
299.47	1443.82
299.68	1384.43
299.89	1398.76
300.11	1464.30
300.32	1431.53
300.54	1368.04
300.75	1423.34
300.97	1470.44
301.18	1370.09
301.39	1411.05
301.61	1443.82
301.82	1370.09
302.04	1370.09
302.25	1437.67
302.46	1439.72
302.68	1370.09
302.89	1449.96
303.11	1454.06
303.32	1353.71
303.54	1417.19
303.75	1388.52
303.96	1406.95
304.18	1435.63
304.39	1404.91
304.61	1454.06
304.82	1380.33
305.03	1353.71
305.25	1380.33
305.46	1409.00
305.68	1454.06
305.89	1437.67
306.10	1419.24
306.32	1341.42
306.53	1415.15
306.75	1456.11
306.96	1480.68
307.17	1441.77
307.39	1398.76
307.60	1421.29
307.82	1400.81
308.03	1425.39
308.24	1497.07
308.46	1384.43
308.67	1400.81
308.88	1429.48
309.10	1413.10
309.31	1425.39
309.53	1404.91
309.74	1443.82
309.95	1382.38
310.17	1333.23
310.38	1402.86
310.59	1439.72
310.81	1449.96
311.02	1466.35
311.24	1476.59
311.45	1390.57
311.66	1466.35
311.88	1345.52
312.09	1437.67
312.30	1388.52
312.52	1519.59
312.73	1433.58
312.95	1427.43
313.16	1454.06
313.37	1419.24
313.59	1384.43
313.80	1445.87
314.01	1439.72
314.23	1441.77
314.44	1388.52
314.65	1425.39
314.87	1433.58
315.08	1439.72
315.29	1400.81
315.51	1396.71
315.72	1521.64
315.94	1382.38
316.15	1384.43
316.36	1400.81
316.58	1478.63
316.79	1462.25
317.00	1476.59
317.22	1363.95
317.43	1417.19
317.64	1345.52
317.86	1413.10
318.07	1392.62
318.28	1398.76
318.50	1478.63
318.71	1359.85
318.92	1458.15
319.14	1456.11
319.35	1366.00
319.56	1443.82
319.78	1458.15
319.99	1388.52
320.20	1429.48
320.42	1458.15
320.63	1382.38
320.84	1433.58
321.05	1441.77
321.27	1447.91
321.48	1400.81
321.69	1431.53
321.91	1421.29
322.12	1363.95
322.33	1437.67
322.55	1388.52
322.76	1419.24
322.97	1462.25
323.19	1476.59
323.40	1417.19
323.61	1449.96
323.83	1394.67
324.04	1449.96
324.25	1382.38
324.46	1423.34
324.68	1409.00
324.89	1441.77
325.10	1400.81
325.32	1427.43
325.53	1339.37
325.74	1449.96
325.96	1501.16
326.17	1462.25
326.38	1449.96
326.59	1456.11
326.81	1423.34
327.02	1388.52
327.23	1409.00
327.45	1400.81
327.66	1454.06
327.87	1456.11
328.08	1384.43
328.30	1429.48
328.51	1421.29
328.72	1400.81
328.94	1468.39
329.15	1419.24
329.36	1427.43
329.57	1404.91
329.79	1482.73
330.00	1400.81
330.21	1322.99
330.42	1425.39
330.64	1378.28
330.85	1480.68
331.06	1482.73
331.28	1409.00
331.49	1470.44
331.70	1433.58
331.91	1376.24
332.13	1415.15
332.34	1464.30
332.55	1454.06
332.76	1402.86
332.98	1478.63
333.19	1484.78
333.40	1417.19
333.61	1378.28
333.83	1495.02
334.04	1488.87
334.25	1423.34
334.46	1470.44
334.68	1343.47
334.89	1417.19
335.10	1404.91
335.31	1392.62
335.53	1480.68
335.74	1400.81
335.95	1421.29
336.16	1392.62
336.38	1415.15
336.59	1445.87
336.80	1456.11
337.01	1404.91
337.23	1400.81
337.44	1456.11
337.65	1425.39
337.86	1435.63
338.07	1441.77
338.29	1495.02
338.50	1456.11
338.71	1470.44
338.92	1413.10
339.14	1396.71
339.35	1447.91
339.56	1392.62
339.77	1472.49
339.98	1417.19
340.20	1415.15
340.41	1482.73
340.62	1413.10
340.83	1384.43
341.05	1404.91
341.26	1441.77
341.47	1447.91
341.68	1429.48
341.89	1445.87
342.11	1423.34
342.32	1423.34
342.53	1472.49
342.74	1515.50
342.95	1464.30
343.17	1458.15
343.38	1331.18
343.59	1437.67
343.80	1452.01
344.01	1490.92
344.23	1380.33
344.44	1341.42
344.65	1452.01
344.86	1386.47
345.07	1423.34
345.29	1431.53
345.50	1464.30
345.71	1464.30
345.92	1441.77
346.13	1499.11
346.35	1370.09
346.56	1386.47
346.77	1443.82
346.98	1439.72
347.19	1409.00
347.40	1495.02
347.62	1441.77
347.83	1441.77
348.04	1396.71
348.25	1417.19
348.46	1390.57
348.67	1417.19
348.89	1468.39
349.10	1458.15
349.31	1380.33
349.52	1456.11
349.73	1433.58
349.95	1421.29
350.16	1458.15
350.37	1492.97
350.58	1441.77
350.79	1462.25
351.00	1433.58
351.21	1433.58
351.43	1447.91
351.64	1466.35
351.85	1447.91
352.06	1423.34
352.27	1425.39
352.48	1466.35
352.70	1488.87
352.91	1538.02
353.12	1376.24
353.33	1509.35
353.54	1435.63
353.75	1454.06
353.96	1400.81
354.18	1400.81
354.39	1447.91
354.60	1464.30
354.81	1435.63
355.02	1490.92
355.23	1466.35
355.44	1398.76
355.66	1519.59
355.87	1468.39
356.08	1480.68
356.29	1441.77
356.50	1466.35
356.71	1384.43
356.92	1509.35
357.13	1476.59
357.35	1394.67
357.56	1404.91
357.77	1447.91
357.98	1478.63
358.19	1431.53
358.40	1429.48
358.61	1462.25
358.82	1409.00
359.04	1449.96
359.25	1417.19
359.46	1404.91
359.67	1425.39
359.88	1490.92
360.09	1363.95
360.30	1570.79
360.51	1470.44
360.72	1411.05
360.94	1392.62
361.15	1419.24
361.36	1466.35
361.57	1540.07
361.78	1435.63
361.99	1425.39
362.20	1523.69
362.41	1495.02
362.62	1492.97
362.83	1470.44
363.05	1458.15
363.26	1478.63
363.47	1568.74
363.68	1572.84
363.89	1531.88
364.10	1583.08
364.31	1503.21
364.52	1552.36
364.73	1535.98
364.94	1578.98
365.15	1589.22
365.36	1632.23
365.58	1570.79
365.79	1574.89
366.00	1581.03
366.21	1617.90
366.42	1609.70
366.63	1630.18
366.84	1652.71
367.05	1646.57
367.26	1611.75
367.47	1591.27
367.68	1671.14
367.89	1642.47
368.10	1667.05
368.31	1787.88
368.53	1630.18
368.74	1669.09
368.95	1722.34
369.16	1671.14
369.37	1716.20
369.58	1689.57
369.79	1767.40
370.00	1785.83
370.21	1695.72
370.42	1736.68
370.63	1718.25
370.84	1791.97
371.05	1769.44
371.26	1822.69
371.47	1859.56
371.68	1771.49
371.89	1751.01
372.10	1892.32
372.31	1826.79
372.52	1824.74
372.74	1781.73
372.95	1824.74
373.16	1912.80
373.37	1824.74
373.58	1871.84
373.79	1849.32
374.00	1830.88
374.21	1886.18
374.42	1859.56
374.63	1892.32
374.84	1880.04
375.05	1861.60
375.26	1943.52
375.47	1984.48
375.68	2013.15
375.89	2045.92
376.10	1939.43
376.31	1941.47
376.52	1998.82
376.73	1941.47
376.94	1982.43
377.15	2070.50
377.36	2041.82
377.57	1931.23
377.78	2031.58
377.99	2064.35
378.20	2074.59
378.41	2072.54
378.62	2015.20
378.83	2045.92
379.04	2023.39
379.25	2097.12
379.46	2125.79
379.67	2129.89
379.88	2185.18
380.09	2099.17
380.30	2099.17
380.51	2125.79
380.72	2125.79
380.93	2150.37
381.14	2197.47
381.35	2226.14
381.56	2301.92
381.77	2246.62
381.98	2279.39
382.19	2406.36
382.40	2254.81
382.61	2269.15
382.82	2308.06
383.03	2394.08
383.24	2406.36
383.45	2504.67
383.66	2385.88
383.87	2355.16
384.08	2498.52
384.29	2412.51
384.50	2340.83
384.71	2566.10
384.92	2521.05
385.13	2414.56
385.34	2494.43
385.55	2527.19
385.76	2441.18
385.97	2488.28
386.18	2555.86
386.39	2555.86
386.59	2547.67
386.80	2637.78
387.01	2578.39
387.22	2707.41
387.43	2666.46
387.64	2602.97
387.85	2699.22
388.06	2744.28
388.27	2750.42
388.48	2682.84
388.69	2641.88
388.90	2656.22
389.11	2721.75
389.32	2930.64
389.53	2744.28
389.74	2832.34
389.95	2858.96
390.16	2713.56
390.37	2818.00
390.57	2924.50
390.78	2875.35
390.99	2879.44
391.20	2924.50
391.41	2916.31
391.62	2994.13
391.83	3035.09
392.04	2963.41
392.25	3164.11
392.46	2992.08
392.67	3014.61
392.88	3035.09
393.09	3141.58
393.30	3028.95
393.50	2922.45
393.71	2949.08
393.92	3131.34
394.13	3141.58
394.34	3071.95
394.55	3160.02
394.76	3147.73
394.97	3229.65
395.18	3274.70
395.39	3133.39
395.60	3354.57
395.81	3395.53
396.01	3198.93
396.22	3373.00
396.43	3205.07
396.64	3313.61
396.85	3280.85
397.06	3286.99
397.27	3327.95
397.48	3481.55
397.69	3465.16
397.90	3364.81
398.10	3418.06
398.31	3383.24
398.52	3391.44
398.73	3403.72
398.94	3495.88
399.15	3528.65
399.36	3420.11
399.57	3579.85
399.78	3549.13
399.98	3588.04
400.19	3545.03
400.40	3606.47
400.61	3434.44
400.82	3493.83
401.03	3508.17
401.24	3669.96
401.45	3659.72
401.65	3682.25
401.86	3637.19
402.07	3532.75
402.28	3725.26
402.49	3774.41
402.70	3952.58
402.91	3604.42
403.12	3737.54
403.32	3942.34
403.53	3737.54
403.74	3770.31
403.95	3868.61
404.16	3948.48
404.37	3784.65
404.58	4030.40
404.78	3889.09
404.99	4104.13
405.20	3952.58
405.41	3962.82
405.62	3907.52
405.83	3923.91
406.03	3995.59
406.24	4069.31
406.45	4126.66
406.66	3981.25
406.87	4042.69
407.08	4222.91
407.29	4210.62
407.49	3983.30
407.70	4071.36
407.91	4356.03
408.12	4020.16
408.33	4294.59
408.54	4300.73
408.74	4325.31
408.95	4188.10
409.16	4319.17
409.37	4208.58
409.58	4247.49
409.79	4329.41
409.99	4335.55
410.20	4356.03
410.41	4151.23
410.62	4325.31
410.83	4292.54
411.03	4065.22
411.24	4356.03
411.45	4505.53
411.66	4423.61
411.87	4456.38
412.08	4603.83
412.28	4876.21
412.49	4124.61
412.70	4372.41
412.91	4609.98
413.12	4591.55
413.32	4427.71
413.53	4464.57
413.74	4456.38
413.95	4487.10
414.16	4573.11
414.36	4331.45
414.57	4284.35
414.78	4499.39
414.99	4626.36
415.20	4552.63
415.40	4358.08
415.61	4595.64
415.82	4700.09
416.03	4724.66
416.23	4677.56
416.44	4624.31
416.65	4890.55
416.86	4509.63
417.07	4415.42
417.27	4769.72
417.48	4685.75
417.69	4876.21
417.90	4747.19
418.11	4849.59
418.31	4577.21
418.52	4759.48
418.73	4827.06
418.94	4773.82
419.14	5095.35
419.35	4796.34
419.56	4718.52
419.77	4700.09
419.97	4976.56
420.18	5052.34
420.39	5160.88
420.60	5013.43
420.80	5140.40
421.01	4966.32
421.22	5142.45
421.43	4949.94
421.63	4868.02
421.84	4978.61
422.05	5054.39
422.26	5144.50
422.46	4876.21
422.67	5371.82
422.88	5023.67
423.09	5126.07
423.29	5044.15
423.50	5334.96
423.71	5246.90
423.92	5216.18
424.12	5162.93
424.33	5355.44
424.54	5019.57
424.75	5234.61
424.95	5488.56
425.16	5316.53
425.37	5160.88
425.58	5326.77
425.78	5132.21
425.99	5427.12
426.20	5480.36
426.40	5275.57
426.61	5414.83
426.82	5494.70
427.03	5595.05
427.23	5515.18
427.44	5713.83
427.65	5648.30
427.86	5658.54
428.06	5752.74
428.27	5844.90
428.48	5785.51
428.68	5939.11
428.89	5709.74
429.10	5799.85
429.31	5709.74
429.51	5488.56
429.72	5877.67
429.93	5783.46
430.13	5734.31
430.34	5734.31
430.55	5756.84
430.75	5746.60
430.96	6205.35
431.17	6076.32
431.38	5988.26
431.58	6023.08
431.79	6086.56
432.00	6170.53
432.20	5844.90
432.41	6031.27
432.62	6215.59
432.82	6303.65
433.03	6033.32
433.24	6191.01
433.44	6283.17
433.65	6246.30
433.86	6426.53
434.06	6344.61
434.27	6729.63
434.48	6258.59
434.68	6242.21
434.89	6504.35
435.10	6498.20
435.31	6483.87
435.51	6162.34
435.72	6453.15
435.93	6834.07
436.13	6215.59
436.34	6670.23
436.55	6598.56
436.75	6395.81
436.96	6000.55
437.16	6698.91
437.37	6969.24
437.58	6594.46
437.78	6657.95
437.99	6426.53
438.20	6674.33
438.40	6813.59
438.61	6670.23
438.82	6981.53
439.02	6840.22
439.23	6674.33
439.44	6905.75
439.64	6731.67
439.85	6614.94
440.06	6750.10
440.26	7114.64
440.47	6739.87
440.68	6823.83
440.88	6829.98
441.09	6619.04
441.29	6881.18
441.50	7298.96
441.71	6995.86
441.91	6838.17
442.12	7266.19
442.33	6875.03
442.53	6875.03
442.74	7198.61
442.94	6965.14
443.15	7100.31
443.36	7409.55
443.56	6975.38
443.77	7243.67
443.98	7264.15
444.18	7460.75
444.39	7454.61
444.59	6967.19
444.80	7219.09
445.01	7145.36
445.21	7071.64
445.42	7174.03
445.62	7118.74
445.83	7518.09
446.04	6975.38
446.24	7479.18
446.45	7196.56
446.65	7270.29
446.86	7292.82
447.07	7569.29
447.27	7384.98
447.48	7237.52
447.68	7737.23
447.89	7608.20
448.10	7454.61
448.30	7470.99
448.51	7460.75
448.71	8071.04
448.92	7395.22
449.13	7415.69
449.33	8034.18
449.54	7876.49
449.74	8263.55
449.95	7608.20
450.15	7368.59
450.36	7726.99
450.57	7864.20
450.77	7757.71
450.98	7495.57
451.18	7212.95
451.39	8118.15
451.60	8275.84
451.80	7708.55
452.01	7937.93
452.21	7956.36
452.42	7675.79
452.62	7821.19
452.83	7944.07
453.03	7778.19
453.24	7808.90
453.45	8454.02
453.65	8265.60
453.86	8277.89
454.06	8359.81
454.27	8003.46
454.47	7987.08
454.68	8214.40
454.88	8718.20
455.09	8716.16
455.30	8265.60
455.50	8478.59
455.71	8404.86
455.91	8564.61
456.12	8701.82
456.32	8560.51
456.53	8628.09
456.73	8673.15
456.94	9058.17
457.14	8730.49
457.35	8699.77
457.55	9131.89
457.76	9037.69
457.97	8945.53
458.17	8851.32
458.38	8806.27
458.58	9549.68
458.79	9064.31
458.99	9181.04
459.20	9365.36
459.40	9707.37
459.61	9441.14
459.81	9492.34
460.02	9248.63
460.22	9469.81
460.43	9600.88
460.63	9748.33
460.84	9820.01
461.04	10372.96
461.25	10338.15
461.45	10151.78
461.66	9588.59
461.86	10522.46
462.07	9848.68
462.27	10678.11
462.48	10250.08
462.68	9987.94
462.89	9795.43
463.09	10399.59
463.30	10133.35
463.50	10346.34
463.71	10866.52
463.91	10616.67
464.12	11108.18
464.32	11188.05
464.53	10565.47
464.73	10876.76
464.94	11319.12
465.14	11110.23
465.35	11755.34
465.55	11480.91
465.76	11528.02
465.96	11239.25
466.17	11026.26
466.37	11247.44
466.58	11874.12
466.78	12822.33
466.99	11902.79
467.19	11876.17
467.40	11759.44
467.60	12269.38
467.80	12396.35
468.01	12638.02
468.21	12756.80
468.42	12496.71
468.62	12773.18
468.83	12207.94
469.03	12382.02
469.24	12906.30
469.44	12431.17
469.65	12916.54
469.85	13020.99
470.06	13154.10
470.26	13068.09
470.46	14006.06
470.67	13539.12
470.87	13666.10
471.08	13436.72
471.28	14237.48
471.49	13860.65
471.69	13453.11
471.90	13610.80
472.10	13614.90
472.30	14296.87
472.51	14376.74
472.71	13860.65
472.92	14257.96
473.12	13907.76
473.33	14808.86
473.53	14462.76
473.73	14894.88
473.94	14941.98
474.14	14700.32
474.35	15019.80
474.55	15007.52
474.76	14776.09
474.96	15042.33
475.16	14991.13
475.37	14937.88
475.57	15664.91
475.78	15664.91
475.98	15386.39
476.19	15662.86
476.39	16000.78
476.59	16389.89
476.80	15945.48
477.00	15961.87
477.21	15746.83
477.41	16090.89
477.61	16230.15
477.82	16201.48
478.02	16525.06
478.23	16615.17
478.43	16979.71
478.63	17096.44
478.84	17190.65
479.04	17125.11
479.25	16856.83
479.45	17272.57
479.65	17217.27
479.86	17186.55
480.06	17561.33
480.27	18028.27
480.47	17417.97
480.67	17704.69
480.88	18200.30
481.08	18056.94
481.28	17633.01
481.49	18132.72
481.69	17899.25
481.90	18206.44
482.10	18251.50
482.30	18554.60
482.51	18423.53
482.71	18939.62
482.91	18613.99
483.12	18474.73
483.32	18738.91
483.53	19101.40
483.73	19107.55
483.93	19128.03
484.14	19478.23
484.34	19418.84
484.54	19451.61
484.75	19185.37
484.95	19363.54
485.15	19637.97
485.36	19666.64
485.56	19932.88
485.76	19384.02
485.97	20178.64
486.17	20074.19
486.38	20070.09
486.58	20113.10
486.78	20262.60
486.99	20342.47
487.19	20154.06
487.39	20553.41
487.60	20477.64
487.80	20942.53
488.00	20608.71
488.21	20289.23
488.41	20602.57
488.61	21171.90
488.82	20639.43
489.02	20803.27
489.22	21180.09
489.43	21079.74
489.63	21690.04
489.83	21546.68
490.04	21671.61
490.24	21458.62
490.44	21747.38
490.64	21659.32
490.85	21790.39
491.05	22187.69
491.25	22337.20
491.46	21776.05
491.66	21855.92
491.86	21974.70
492.07	22476.46
492.27	22130.35
492.47	22386.35
492.68	22175.41
492.88	22560.42
493.08	22226.60
493.29	23010.98
493.49	22369.96
493.69	22664.87
493.89	22797.99
494.10	22824.61
494.30	23033.50
494.50	23115.42
494.71	22836.90
494.91	23295.64
495.11	23600.79
495.31	23140.00
495.52	23365.28
495.72	23248.54
495.92	23862.93
496.13	23529.11
496.33	23498.39
496.53	23670.42
496.73	23559.83
496.94	23344.80
497.14	23781.01
497.34	23914.13
497.55	24004.24
497.75	24075.92
497.95	23977.62
498.15	24223.37
498.36	24372.88
498.56	24233.61
498.76	24211.09
498.96	24260.24
499.17	24469.13
499.37	24352.40
499.57	24802.95
499.77	24710.79
499.98	25075.33
500.18	24585.86
500.38	24952.45
500.58	24688.26
500.79	24864.39
500.99	24989.31
501.19	25202.30
501.39	25384.57
501.60	25233.02
501.80	24987.27
502.00	25521.79
502.20	25294.46
502.41	25478.78
502.61	25357.95
502.81	25411.20
503.01	25570.94
503.22	25650.81
503.42	25990.77
503.62	26091.12
503.82	25892.47
504.03	25624.18
504.23	25650.81
504.43	26048.11
504.63	26132.08
504.83	26326.64
505.04	26115.70
505.24	26164.85
505.44	26009.20
505.64	26265.20
505.85	26467.95
506.05	26474.09
506.25	25605.75
506.45	26539.63
506.65	26422.89
506.86	26039.92
507.06	26359.41
507.26	25775.73
507.46	26799.72
507.66	26426.99
507.87	26302.06
508.07	26324.59
508.27	26748.52
508.47	26457.71
508.67	27147.87
508.88	26439.28
509.08	26703.46
509.28	26754.66
509.48	26783.34
509.68	26506.86
509.89	27033.19
510.09	26908.26
510.29	26914.41
510.49	27309.66
510.69	27293.28
510.90	27068.00
511.10	26928.74
511.30	27262.56
511.50	26881.64
511.70	27268.70
511.90	27131.49
512.11	27174.50
512.31	27151.97
512.51	27647.58
512.71	27436.64
512.91	27428.45
513.12	27364.96
513.32	27844.18
513.52	27709.02
513.72	27889.24
513.92	27924.05
514.12	27514.46
514.33	28026.45
514.53	27788.89
514.73	28163.67
514.93	27770.46
515.13	28016.21
515.33	28130.90
515.53	28261.97
515.74	28089.94
515.94	28429.90
516.14	28386.89
516.34	28573.26
516.54	28245.58
516.74	28776.01
516.94	28372.56
517.15	28532.30
517.35	28350.03
517.55	29120.07
517.75	28993.09
517.95	29341.25
518.15	29275.71
518.35	29599.29
518.56	29570.62
518.76	29314.62
518.96	29734.46
519.16	30170.68
519.36	29691.45
519.56	30021.17
519.76	29847.10
519.96	30445.10
520.17	30572.08
520.37	30109.24
520.57	30668.33
520.77	30281.27
520.97	30701.10
521.17	30527.02
521.37	30742.06
521.57	30957.10
521.77	30860.84
521.98	31157.80
522.18	31159.84
522.38	31004.20
522.58	31200.80
522.78	31096.36
522.98	31135.27
523.18	31086.12
523.38	31735.32
523.58	31653.40
523.79	32050.71
523.99	31794.71
524.19	31733.28
524.39	32263.70
524.59	31835.67
524.79	32232.98
524.99	32359.95
525.19	32488.98
525.39	32568.85
525.59	32470.54
525.79	31974.94
525.99	32708.11
526.20	32214.55
526.40	32251.41
526.60	32583.18
526.80	32529.94
527.00	32546.32
527.20	32693.77
527.40	32503.31
527.60	32454.16
527.80	32546.32
528.00	32876.04
528.20	32724.49
528.40	32448.02
528.60	32419.35
528.80	32310.80
529.01	32921.10
529.21	32814.60
529.41	32751.12
529.61	33025.54
529.81	32890.38
530.01	32794.12
530.21	33218.05
530.41	33211.91
530.61	33013.26
530.81	32972.30
531.01	33375.75
531.21	33179.14
531.41	33013.26
531.61	33746.43
531.81	33146.37
532.01	33299.97
532.21	33265.16
532.41	33041.93
532.61	33406.47
532.81	33732.09
533.01	33355.27
533.21	32906.76
533.41	33357.32
533.61	33515.01
533.82	33119.75
534.02	33250.82
534.22	33453.57
534.42	32992.78
534.62	33402.37
534.82	32865.80
535.02	32966.15
535.22	33129.99
535.42	33113.61
535.62	33500.67
535.82	33582.59
536.02	33322.50
536.22	33242.63
536.42	33283.59
536.62	33279.49
536.82	33265.16
537.02	33439.23
537.22	33457.67
537.42	33416.71
537.62	33355.27
537.82	33598.98
538.02	33537.54
538.22	33336.84
538.42	33109.51
538.62	33680.89
538.82	33293.83
539.02	33420.80
539.22	33318.40
539.42	33093.13
539.62	33549.82
539.82	33269.25
540.02	33674.75
540.22	33238.53
540.42	33232.39
540.62	32886.28
540.82	33459.71
541.02	33648.13
541.21	33388.03
541.41	33236.48
541.61	33809.92
541.81	33224.20
542.01	33027.59
542.21	33230.34
542.41	33394.18
542.61	33093.13
542.81	33459.71
543.01	33406.47
543.21	33986.04
543.41	33570.30
543.61	34043.38
543.81	33443.33
544.01	33449.47
544.21	33721.85
544.41	34051.58
544.61	33850.88
544.81	33781.24
545.01	33971.71
545.21	34344.44
545.41	33426.95
545.61	34223.61
545.81	33897.98
546.00	33988.09
546.20	34070.01
546.40	33836.54
546.60	33721.85
546.80	33928.70
547.00	33920.51
547.20	34450.93
547.40	34162.17
547.60	34391.54
547.80	34106.87
548.00	34190.84
548.20	34172.41
548.40	34723.31
548.60	34336.24
548.79	34504.18
548.99	34551.28
549.19	34043.38
549.39	34459.12
549.59	34543.09
549.79	34248.18
549.99	34260.47
550.19	34283.00
550.39	34340.34
550.59	34358.77
550.79	34848.24
550.98	34448.88
551.18	34541.04
551.38	34758.13
551.58	34909.68
551.78	34586.10
551.98	34391.54
552.18	34711.02
552.38	34432.50
552.58	34706.93
552.78	34743.79
552.97	34639.34
553.17	34538.99
553.37	34653.68
553.57	34727.41
553.77	34399.73
553.97	34682.35
554.17	34584.05
554.37	34573.81
554.57	34670.06
554.76	34463.22
554.96	34690.54
555.16	34790.89
555.36	35050.99
555.56	34975.21
555.76	34723.31
555.96	34682.35
556.16	34778.61
556.35	34860.52
556.55	34846.19
556.75	34964.97
556.95	34678.25
557.15	35016.17
557.35	35044.84
557.55	35042.79
557.74	34887.15
557.94	35266.02
558.14	35243.49
558.34	35292.65
558.54	35005.93
558.74	35126.76
558.94	35214.82
559.13	35276.26
559.33	35048.94
559.53	35069.42
559.73	35067.37
559.93	34790.89
560.13	35012.07
560.32	34840.04
560.52	35171.82
560.72	34807.28
560.92	34784.75
561.12	35192.30
561.32	34534.90
561.51	34967.02
561.71	34473.46
561.91	34776.56
562.11	34694.64
562.31	34739.69
562.51	34915.82
562.70	34807.28
562.90	34610.67
563.10	34250.23
563.30	34328.05
563.50	34973.16
563.69	34575.86
563.89	34475.51
564.09	34500.08
564.29	33990.14
564.49	34416.11
564.68	34465.27
564.88	34405.88
565.08	35044.84
565.28	34436.59
565.48	34463.22
565.67	34604.53
565.87	34883.05
566.07	34569.71
566.27	34600.43
566.47	34323.96
566.66	34373.11
566.86	34479.60
567.06	34766.32
567.26	34475.51
567.46	34606.58
567.65	34385.40
567.85	34762.22
568.05	34498.03
568.25	34543.09
568.45	34256.37
568.64	34543.09
568.84	34600.43
569.04	34498.03
569.24	34645.49
569.43	34924.01
569.63	34446.83
569.83	34715.12
570.03	34502.13
570.22	34897.39
570.42	34463.22
570.62	34831.85
570.82	34569.71
571.02	34739.69
571.21	34463.22
571.41	34823.66
571.61	34801.13
571.81	34706.93
572.00	34823.66
572.20	35093.99
572.40	34659.82
572.60	34704.88
572.79	35102.18
572.99	34852.33
573.19	34876.91
573.39	35425.76
573.58	35218.92
573.78	35425.76
573.98	35159.53
574.17	34995.69
574.37	35294.69
574.57	34663.92
574.77	34909.68
574.96	35216.87
575.16	35106.28
575.36	35010.03
575.56	35073.51
575.75	35118.57
575.95	35292.65
576.15	35464.67
576.34	34950.63
576.54	35300.84
576.74	35323.36
576.94	34946.54
577.13	35257.83
577.33	35399.14
577.53	35784.16
577.72	35147.24
577.92	35184.10
578.12	35634.66
578.32	35642.85
578.51	35577.31
578.71	35888.60
578.91	36126.17
579.10	35608.03
579.30	36421.08
579.50	35882.46
579.70	35661.28
579.89	35698.14
580.09	36062.68
580.29	36382.16
580.48	36054.49
580.68	36625.87
580.88	36271.57
581.07	36769.23
581.27	36617.68
581.47	36222.42
581.66	36683.22
581.86	36718.03
582.06	36615.63
582.25	36875.73
582.45	36615.63
582.65	36529.62
582.84	36687.31
583.04	36957.64
583.24	36908.49
583.43	36744.66
583.63	36986.32
583.83	36464.08
584.02	37377.48
584.22	36779.47
584.42	37311.94
584.61	37021.13
584.81	36978.12
585.01	36924.88
585.20	37150.15
585.40	37154.25
585.60	37090.76
585.79	37469.64
585.99	37057.99
586.19	37203.40
586.38	37383.62
586.58	37219.78
586.78	37402.05
586.97	37160.39
587.17	37735.87
587.36	37254.60
587.56	37952.96
587.76	37701.06
587.95	37760.45
588.15	37551.56
588.35	38034.88
588.54	37836.22
588.74	37584.32
588.94	37707.20
589.13	37656.00
589.33	37270.98
589.52	37762.50
589.72	37815.74
589.92	37834.17
590.11	37723.58
590.31	37963.20
590.51	37612.99
590.70	37846.46
590.90	37858.75
591.09	37993.92
591.29	37721.54
591.49	37602.75
591.68	37137.87
591.88	37670.34
592.07	37615.04
592.27	37549.51
592.47	37051.85
592.66	37266.89
592.86	36879.82
593.05	36883.92
593.25	36578.77
593.45	37123.53
593.64	36963.79
593.84	36998.60
594.03	36799.95
594.23	37170.63
594.42	36834.77
594.62	37064.14
594.82	36681.17
595.01	37324.23
595.21	36742.61
595.40	37283.27
595.60	37062.09
595.80	36963.79
595.99	36705.74
596.19	37549.51
596.38	36562.39
596.58	37068.23
596.77	36668.88
596.97	36959.69
597.17	37262.79
597.36	36808.14
597.56	36216.28
597.75	36992.46
597.95	36439.51
598.14	36771.28
598.34	37082.57
598.53	36814.29
598.73	36873.68
598.93	37475.78
599.12	37305.80
599.32	36535.76
599.51	36808.14
599.71	36525.52
599.90	36791.76
600.10	36920.78
600.29	36638.16
600.49	36756.94
600.68	36853.20
600.88	36992.46
601.08	36677.07
601.27	36505.04
601.47	36251.09
601.66	36900.30
601.86	36304.34
602.05	36064.73
602.25	36070.87
602.44	36353.49
602.64	35950.04
602.83	36183.51
603.03	36179.42
603.22	36410.84
603.42	36445.65
603.61	36484.56
603.81	36427.22
604.00	36507.09
604.20	36326.87
604.39	36290.01
604.59	36752.85
604.78	36568.53
604.98	36560.34
605.17	36611.54
605.37	36275.67
605.56	36957.64
605.76	37141.96
605.95	36777.42
606.15	36709.84
606.34	36849.10
606.54	36931.02
606.73	36804.05
606.93	36410.84
607.12	36900.30
607.32	36892.11
607.51	36935.12
607.71	36500.95
607.90	36576.72
608.10	36879.82
608.29	37207.50
608.49	36912.59
608.68	37154.25
608.88	36414.93
609.07	37215.69
609.27	36640.21
609.46	37291.46
609.66	37146.06
609.85	37420.48
610.04	36840.91
610.24	37393.86
610.43	36810.19
610.63	37080.52
610.82	37277.13
611.02	37215.69
611.21	37201.35
611.41	37744.06
611.60	37459.40
611.80	37565.89
611.99	37359.05
612.19	37852.61
612.38	37543.36
612.57	38053.31
612.77	37389.77
612.96	37971.39
613.16	38069.69
613.35	37828.03
613.55	38370.74
613.74	38526.39
613.93	38333.88
614.13	38145.47
614.32	38616.50
614.52	38151.61
614.71	38641.07
614.91	38518.20
615.10	39071.15
615.30	38872.49
615.49	38665.65
615.68	38792.62
615.88	38612.40
616.07	39124.40
616.27	38962.61
616.46	39259.56
616.65	39124.40
616.85	38897.07
617.04	38940.08
617.24	38927.79
617.43	38581.68
617.62	38845.87
617.82	39364.01
618.01	39513.51
618.21	39196.07
618.40	38931.89
618.60	39136.68
618.79	39693.73
618.98	39304.62
619.18	39122.35
619.37	39456.17
619.56	39136.68
619.76	39507.37
619.95	39443.88
620.15	39343.53
620.34	39058.86
620.53	39255.46
620.73	39570.85
620.92	39208.36
621.12	39366.06
621.31	38938.03
621.50	38909.36
621.70	39198.12
621.89	39413.16
622.08	38940.08
622.28	38978.99
622.47	39132.59
622.67	38958.51
622.86	39247.27
623.05	38958.51
623.25	38647.22
623.44	38612.40
623.63	39062.96
623.83	38997.42
624.02	38712.75
624.21	38694.32
624.41	38321.59
624.60	38266.30
624.79	38086.07
624.99	38464.95
625.18	38632.88
625.38	38170.04
625.57	38364.60
625.76	37850.56
625.96	37684.67
626.15	38481.33
626.34	37780.93
626.54	38016.44
626.73	38043.07
626.92	37639.62
627.12	37651.91
627.31	37563.84
627.50	37316.04
627.70	37838.27
627.89	36933.07
628.08	36791.76
628.28	37189.06
628.47	37334.47
628.66	37041.61
628.85	36877.77
629.05	36740.56
629.24	36705.74
629.43	36955.60
629.63	37021.13
629.82	36623.83
630.01	36853.20
630.21	36341.21
630.40	36826.57
630.59	36525.52
630.79	36613.59
630.98	36519.38
631.17	36054.49
631.37	35923.42
631.56	35935.71
631.75	35853.79
631.94	36251.09
632.14	35986.91
632.33	36247.00
632.52	36040.15
632.72	36259.29
632.91	35968.48
633.10	35440.10
633.29	35904.99
633.49	35945.95
633.68	35667.42
633.87	35476.96
634.07	35665.38
634.26	35323.36
634.45	35532.26
634.64	35235.30
634.84	35376.61
635.03	35329.51
635.22	35362.28
635.41	34936.30
635.61	35304.93
635.80	35980.76
635.99	35122.66
636.18	34944.49
636.38	34665.97
636.57	35093.99
636.76	35073.51
636.96	34803.18
637.15	34999.79
637.34	35091.94
637.53	35204.58
637.73	34962.92
637.92	34506.23
638.11	35200.49
638.30	34840.04
638.49	34997.74
638.69	34629.10
638.88	34903.53
639.07	34893.29
639.26	34854.38
639.46	34493.94
639.65	34889.20
639.84	34459.12
640.03	34401.78
640.23	34616.82
640.42	34797.04
640.61	34751.98
640.80	34448.88
640.99	34450.93
641.19	34737.65
641.38	34842.09
641.57	34657.78
641.76	34452.98
641.96	34442.74
642.15	34715.12
642.34	34407.92
642.53	34481.65
642.72	34936.30
642.92	34627.06
643.11	34674.16
643.30	34692.59
643.49	34526.71
643.68	35050.99
643.88	34694.64
644.07	34102.78
644.26	34321.91
644.45	34645.49
644.64	34407.92
644.84	33906.17
645.03	34246.13
645.22	34588.14
645.41	34280.95
645.60	34762.22
645.80	34364.92
645.99	34395.64
646.18	34477.55
646.37	34633.20
646.56	34678.25
646.75	34461.17
646.95	34782.70
647.14	34704.88
647.33	34813.42
647.52	34649.58
647.71	34729.45
647.90	34285.04
648.10	34983.40
648.29	34223.61
648.48	34985.45
648.67	34768.37
648.86	34495.99
649.05	34780.65
649.25	34932.20
649.44	35339.75
649.63	35220.97
649.82	35065.32
650.01	35231.21
650.20	34737.65
650.39	34670.06
650.59	34921.96
650.78	34766.32
650.97	34797.04
651.16	35255.78
651.35	34862.57
651.54	34856.43
651.73	34520.56
651.93	34887.15
652.12	34928.11
652.31	34860.52
652.50	34780.65
652.69	34381.30
652.88	34764.27
653.07	34317.81
653.26	34932.20
653.46	35069.42
653.65	35057.13
653.84	35167.72
654.03	34790.89
654.22	35257.83
654.41	35089.90
654.60	34958.83
654.79	34778.61
654.98	35349.99
655.18	34731.50
655.37	34850.28
655.56	34924.01
655.75	35081.70
655.94	35274.21
656.13	35272.17
656.32	34803.18
656.51	35206.63
656.70	35106.28
656.89	34575.86
657.09	34950.63
657.28	35143.14
657.47	34786.80
657.66	34782.70
657.85	34831.85
658.04	35536.35
658.23	34848.24
658.42	34784.75
658.61	34934.25
658.80	35347.94
658.99	34948.59
659.18	34930.16
659.38	34541.04
659.57	34487.79
659.76	34481.65
659.95	34655.73
660.14	34405.88
660.33	34506.23
660.52	34053.62
660.71	34700.78
660.90	34088.44
661.09	34674.16
661.28	34117.11
661.47	33994.23
661.66	34055.67
661.85	34457.07
662.04	34295.28
662.23	34397.68
662.42	33814.01
662.62	33908.22
662.81	33736.19
663.00	33914.36
663.19	33629.69
663.38	33785.34
663.57	33801.72
663.76	33592.83
663.95	33582.59
664.14	33617.41
664.33	32931.34
664.52	33125.89
664.71	33244.68
664.90	33228.29
665.09	33412.61
665.28	33033.74
665.47	33246.72
665.66	32740.88
665.85	32904.71
666.04	32833.04
666.23	32544.27
666.42	32720.40
666.61	32656.91
666.80	33080.84
666.99	32984.58
667.18	32626.19
667.37	32830.99
667.56	32835.08
667.75	32370.19
667.94	32814.60
668.13	32579.09
668.32	32927.24
668.51	32550.42
668.70	32212.50
668.89	32732.68
669.08	32362.00
669.27	31800.86
669.46	32425.49
669.65	32161.30
669.84	32491.02
670.03	31944.22
670.22	32294.42
670.41	32019.99
670.60	32243.22
670.79	31686.17
670.98	31933.98
671.17	31747.61
671.36	31700.51
671.55	31516.19
671.74	31487.52
671.93	31682.08
672.12	31268.39
672.31	31319.59
672.50	31077.93
672.69	31182.37
672.88	31338.02
673.07	31256.10
673.26	30885.42
673.44	30840.36
673.63	31176.23
673.82	30541.36
674.01	30617.13
674.20	30881.32
674.39	31039.01
674.58	30803.50
674.77	30604.84
674.96	30746.15
675.15	30873.13
675.34	30463.54
675.53	30697.00
675.72	30926.38
675.91	30359.09
676.10	30699.05
676.29	30340.66
676.48	30592.56
676.66	30275.12
676.85	29965.88
677.04	29929.02
677.23	30369.33
677.42	29836.86
677.61	30039.61
677.80	30043.70
677.99	30273.07
678.18	30387.76
678.37	30064.18
678.56	30215.73
678.75	29898.30
678.93	30033.46
679.12	29673.02
679.31	29931.06
679.50	29431.36
679.69	29273.67
679.88	29220.42
680.07	29447.74
680.26	29457.98
680.45	29277.76
680.64	28943.94
680.82	29271.62
681.01	29668.92
681.20	29097.54
681.39	28571.21
681.58	29093.44
681.77	29204.03
681.96	29042.24
682.15	28921.41
682.34	29034.05
682.52	28966.47
682.71	28894.79
682.90	28583.50
683.09	28778.06
683.28	28907.08
683.47	28534.35
683.66	28741.19
683.85	29204.03
684.03	28970.57
684.22	28663.37
684.41	28575.31
684.60	28737.10
684.79	28491.34
684.98	28790.34
685.17	28466.77
685.35	28782.15
685.54	28434.00
685.73	28700.23
685.92	28730.95
686.11	28845.64
686.30	28585.55
686.48	28692.04
686.67	28302.93
686.86	28216.91
687.05	28245.58
687.24	28511.82
687.43	27905.62
687.62	28304.98
687.80	28063.32
687.99	28464.72
688.18	28364.37
688.37	28458.57
688.56	28137.04
688.74	28698.19
688.93	28147.28
689.12	28198.48
689.31	28331.60
689.50	28259.92
689.69	28239.44
689.87	28173.91
690.06	28249.68
690.25	28370.51
690.44	27893.33
690.63	28067.41
690.81	27872.85
691.00	28221.01
691.19	28200.53
691.38	28198.48
691.57	27911.77
691.75	27960.92
691.94	27737.69
692.13	27917.91
692.32	27528.80
692.51	27584.09
692.69	28024.40
692.88	27862.61
693.07	27831.90
693.26	27315.81
693.45	27713.11
693.63	27678.30
693.82	27731.54
694.01	27979.35
694.20	27414.11
694.38	27657.82
694.57	27649.63
694.76	27784.79
694.95	27739.74
695.14	27932.25
695.32	27567.71
695.51	27897.43
695.70	27573.85
695.89	27766.36
696.07	27928.15
696.26	28030.55
696.45	28079.70
696.64	28038.74
696.82	27833.94
697.01	27811.42
697.20	27989.59
697.39	27770.46
697.57	27844.18
697.76	27612.76
697.95	27987.54
698.14	27590.24
698.32	27698.78
698.51	28065.36
698.70	27598.43
698.89	28020.31
699.07	27721.30
699.26	27776.60
699.45	27448.93
699.64	27295.33
699.82	27842.14
700.01	27987.54
700.20	27471.45
700.38	27653.72
700.57	27567.71
700.76	26975.84
700.95	27287.14
701.13	27289.18
701.32	27600.47
701.51	27709.02
701.69	27825.75
701.88	28048.98
702.07	27291.23
702.26	27702.87
702.44	27131.49
702.63	27367.01
702.82	26984.04
703.00	27512.41
703.19	27121.25
703.38	27082.34
703.57	27500.12
703.75	26846.82
703.94	27108.96
704.13	26814.05
704.31	27407.97
704.50	26639.98
704.69	26601.07
704.87	26510.96
705.06	26492.52
705.25	26607.21
705.43	26691.18
705.62	26670.70
705.81	26437.23
705.99	26611.31
706.18	26506.86
706.37	26523.24
706.55	26056.31
706.74	26277.49
706.93	25988.72
707.11	26308.21
707.30	26134.13
707.49	25884.28
707.67	25638.52
707.86	26261.10
708.05	26187.38
708.23	26363.50
708.42	26629.74
708.61	26287.73
708.79	26052.21
708.98	26332.78
709.17	25491.07
709.35	26087.03
709.54	25677.43
709.73	25609.85
709.91	25599.61
710.10	25476.73
710.28	25308.80
710.47	25460.35
710.66	25321.09
710.84	25613.95
711.03	25280.13
711.22	25169.54
711.40	25132.67
711.59	25507.45
711.78	24995.46
711.96	25462.40
712.15	25120.38
712.33	25075.33
712.52	24968.84
712.71	25411.20
712.89	24837.76
713.08	24850.05
713.26	24950.40
713.45	24893.06
713.64	24835.72
713.82	25357.95
714.01	24559.24
714.19	24663.69
714.38	24675.98
714.57	24714.89
714.75	24045.20
714.94	24540.81
715.12	24495.75
715.31	24571.53
715.50	24485.51
715.68	24612.49
715.87	24045.20
716.05	24340.11
716.24	24110.74
716.43	24053.39
716.61	24039.06
716.80	23996.05
716.98	23271.07
717.17	24178.32
717.35	23676.57
717.54	23828.12
717.73	23494.30
717.91	23852.69
718.10	23592.60
718.28	23629.46
718.47	23498.39
718.65	22900.39
718.84	23068.32
719.03	22822.56
719.21	23056.03
719.40	22947.49
719.58	22832.80
719.77	22881.95
719.95	22699.69
720.14	22615.72
720.32	22533.80
720.51	22630.05
720.70	22578.86
720.88	22646.44
721.07	22572.71
721.25	22525.61
721.44	22402.73
721.62	22181.55
721.81	22240.94
721.99	22054.58
722.18	22134.45
722.36	22271.66
722.55	21829.30
722.73	22150.83
722.92	21931.70
723.10	22107.82
723.29	22103.73
723.48	21962.42
723.66	21929.65
723.85	21931.70
724.03	21847.73
724.22	22109.87
724.40	21571.25
724.59	21677.75
724.77	21761.72
724.96	21661.37
725.14	21565.11
725.33	21800.63
725.51	21610.17
725.70	21763.76
725.88	21509.82
726.07	21335.74
726.25	21726.90
726.44	21382.84
726.62	21642.93
726.81	21083.84
726.99	21294.78
727.18	21558.97
727.36	21255.87
727.55	21585.59
727.73	21325.50
727.91	21010.11
728.10	21128.89
728.28	21489.34
728.47	21153.47
728.65	21249.72
728.84	21092.03
729.02	21046.97
729.21	21294.78
729.39	21075.65
729.58	20954.82
729.76	21112.51
729.95	20969.15
730.13	21405.37
730.32	21118.65
730.50	21112.51
730.68	20545.22
730.87	20577.99
731.05	21200.57
731.24	20981.44
731.42	20969.15
731.61	21096.13
731.79	20672.20
731.98	20907.71
732.16	20928.19
732.34	20879.04
732.53	20788.93
732.71	20999.87
732.90	21145.28
733.08	20776.64
733.27	20764.36
733.45	21073.60
733.64	21087.93
733.82	21237.44
734.00	20907.71
734.19	21057.21
734.37	21059.26
734.56	21266.11
734.74	20907.71
734.92	21018.30
735.11	20897.47
735.29	20793.03
735.48	21030.59
735.66	20731.59
735.84	20506.31
736.03	20473.54
736.21	20387.53
736.40	20659.91
736.58	20346.57
736.77	20848.32
736.95	20854.47
737.13	20692.68
737.32	20883.14
737.50	20709.06
737.68	20553.41
737.87	20735.68
738.05	20770.50
738.24	20444.87
738.42	20244.17
738.60	20661.96
738.79	20104.91
738.97	20430.54
739.16	20477.64
739.34	20436.68
739.52	20305.61
739.71	20418.25
739.89	20356.81
740.07	20391.62
740.26	20397.77
740.44	20328.14
740.62	20137.68
740.81	20545.22
740.99	20371.15
741.18	20455.11
741.36	20317.90
741.54	20197.07
741.73	19977.94
741.91	20231.88
742.09	20141.77
742.28	20123.34
742.46	20096.72
742.64	20182.73
742.83	19807.95
743.01	19879.63
743.19	20020.94
743.38	20117.20
743.56	19633.88
743.74	20139.72
743.93	19885.78
744.11	19742.42
744.29	19789.52
744.48	19543.77
744.66	19816.15
744.84	19312.35
745.03	19400.41
745.21	19298.01
745.39	19304.15
745.58	19211.99
745.76	19281.63
745.94	19089.12
746.13	19113.69
746.31	18999.01
746.49	18872.03
746.68	18937.57
746.86	18695.91
747.04	18759.39
747.22	19091.16
747.41	18638.56
747.59	18564.84
747.77	18570.98
747.96	18941.66
748.14	18577.12
748.32	18464.49
748.51	18636.52
748.69	18517.73
748.87	18738.91
749.05	18319.08
749.24	18558.69
749.42	18169.58
749.60	18763.49
749.79	18351.85
749.97	18384.62
750.15	18589.41
750.33	18421.48
750.52	18532.07
750.70	18169.58
750.88	18122.48
751.06	18075.37
751.25	18104.04
751.43	17993.45
751.61	17975.02
751.79	17727.22
751.98	17954.54
752.16	17938.16
752.34	17860.34
752.52	17784.56
752.71	17657.59
752.89	17776.37
753.07	17497.84
753.25	17719.03
753.44	17561.33
753.62	17454.84
753.80	17428.21
753.98	17454.84
754.17	17555.19
754.35	17291.00
754.53	17309.43
754.71	17389.30
754.90	16891.65
755.08	17114.87
755.26	16869.12
755.44	16922.37
755.63	16850.69
755.81	16760.58
755.99	16627.46
756.17	17028.86
756.35	16940.80
756.54	16830.21
756.72	16690.95
756.90	16791.30
757.08	16527.11
757.26	16432.90
757.45	16609.03
757.63	16545.54
757.81	16355.08
757.99	16320.26
758.17	16275.21
758.36	16113.42
758.54	16049.93
758.72	16348.93
758.90	16152.33
759.08	16072.46
759.27	15814.41
759.45	16256.78
759.63	15785.74
759.81	15841.04
759.99	15810.32
760.18	15904.53
760.36	15879.95
760.54	15679.25
760.72	15732.50
760.90	16107.27
761.08	15728.40
761.27	16033.55
761.45	15783.70
761.63	15847.18
761.81	16074.51
761.99	15884.05
762.17	15654.67
762.36	16056.08
762.54	16019.21
762.72	16097.03
762.90	16097.03
763.08	16113.42
763.26	15759.12
763.45	15810.32
763.63	15892.24
763.81	15959.82
763.99	15955.72
764.17	15976.20
764.35	15791.89
764.53	16121.61
764.72	16039.69
764.90	15959.82
765.08	15941.39
765.26	16269.06
765.44	15908.62
765.62	16043.79
765.80	15920.91
765.98	16234.25
766.17	15904.53
766.35	16000.78
766.53	15808.27
766.71	16099.08
766.89	16029.45
767.07	15996.68
767.25	15982.35
767.43	16072.46
767.61	15900.43
767.80	15826.70
767.98	15918.86
768.16	16201.48
768.34	16097.03
768.52	15916.81
768.70	15875.85
768.88	16080.65
769.06	16072.46
769.24	15544.08
769.42	15974.16
769.61	15552.27
769.79	15832.85
769.97	15621.91
770.15	16142.09
770.33	15939.34
770.51	15660.82
770.69	15826.70
770.87	15734.54
771.05	15658.77
771.23	15705.87
771.41	15658.77
771.59	15722.26
771.78	15474.45
771.96	15580.95
772.14	15564.56
772.32	15187.74
772.50	15374.10
772.68	15484.69
772.86	15421.20
773.04	15101.72
773.22	15363.86
773.40	15163.16
773.58	15453.97
773.76	15269.66
773.94	15105.82
774.12	15386.39
774.30	14966.56
774.48	15202.07
774.66	14839.58
774.84	14784.29
775.02	14933.79
775.21	14862.11
775.39	14737.18
775.57	14765.85
775.75	14890.78
775.93	14532.39
776.11	14915.36
776.29	14454.56
776.47	14362.40
776.65	14274.34
776.83	14026.54
777.01	14321.45
777.19	14257.96
777.37	14040.87
777.55	14360.36
777.73	13995.82
777.91	13995.82
778.09	13942.57
778.27	13707.05
778.45	13641.52
778.63	13764.40
778.81	13838.12
778.99	13752.11
779.17	13557.55
779.35	13369.14
779.53	13145.91
779.71	13229.88
779.89	13172.54
780.07	13279.03
780.25	13223.73
780.43	13215.54
780.61	12846.91
780.79	12963.64
780.97	12697.41
781.15	12988.22
781.33	12619.58
781.51	12695.36
781.69	12478.27
781.87	12373.83
782.05	12484.42
782.23	12355.40
782.41	12189.51
782.59	12371.78
782.76	12304.20
782.94	12285.76
783.12	12195.65
783.30	12117.83
783.48	12183.37
783.66	12379.97
783.84	12314.44
784.02	12070.73
784.20	12070.73
784.38	11976.52
784.56	11714.38
784.74	11796.30
784.92	11745.10
785.10	11769.68
785.28	11718.48
785.46	11763.53
785.64	11511.63
785.82	11583.31
786.00	11431.76
786.17	11499.34
786.35	11507.54
786.53	11210.58
786.71	11347.79
786.89	11163.48
787.07	11464.53
787.25	11245.40
787.43	11251.54
787.61	11245.40
787.79	10727.26
787.97	10860.38
788.15	10977.11
788.32	10882.91
788.50	10858.33
788.68	11036.50
788.86	10872.67
789.04	10975.06
789.22	10868.57
789.40	10837.85
789.58	10803.04
789.76	10803.04
789.94	10737.50
790.11	10766.17
790.29	10731.36
790.47	10491.74
790.65	10465.12
790.83	10442.59
791.01	10346.34
791.19	10379.11
791.37	10329.95
791.55	10358.63
791.72	10375.01
791.90	10141.54
792.08	10088.29
792.26	10004.33
792.44	10190.69
792.62	10073.96
792.80	9924.46
792.98	9805.67
793.15	9770.86
793.33	9873.26
793.51	9834.35
793.69	9820.01
793.87	10035.05
794.05	9764.72
794.23	9719.66
794.40	9711.47
794.58	9748.33
794.76	9701.23
794.94	9840.49
795.12	9760.62
795.30	9609.07
795.47	9590.64
795.65	9344.88
795.83	9381.74
796.01	9553.77
796.19	9383.79
796.37	9457.52
796.54	9609.07
796.72	9449.33
796.90	9324.40
797.08	9443.18
797.26	9242.48
797.44	9363.31
797.61	9312.11
797.79	9183.09
797.97	9250.67
798.15	9353.07
798.33	9170.80
798.50	9262.96
798.68	9123.70
798.86	9273.20
799.04	9113.46
799.22	8935.29
799.39	8982.39
799.57	9025.40
799.75	8933.24
799.93	8861.56
800.11	8951.67
800.28	9013.11
800.46	8923.00
800.64	8843.13
800.82	8722.30
801.00	8814.46
801.17	8673.15
801.35	8599.42
801.53	8619.90
801.71	8736.63
801.88	8677.24
802.06	8511.36
802.24	8376.19
802.42	8464.25
802.59	8587.13
802.77	8337.28
802.95	8529.79
803.13	8284.03
803.31	8408.96
803.48	8249.22
803.66	8513.41
803.84	8380.29
804.02	8271.75
804.19	8128.39
804.37	8249.22
804.55	8118.15
804.73	8120.20
804.90	7991.17
805.08	8087.43
805.26	8263.55
805.44	8169.35
805.61	7974.79
805.79	8044.42
805.97	7907.21
806.14	7999.37
806.32	7964.55
806.50	8044.42
806.68	8073.09
806.85	7987.08
807.03	8009.61
807.21	7833.48
807.39	7860.10
807.56	7888.78
807.74	7954.31
807.92	7886.73
808.09	7661.45
808.27	7903.11
808.45	7665.55
808.62	7688.07
808.80	7919.50
808.98	7528.33
809.16	7487.37
809.33	7331.73
809.51	7430.03
809.69	7618.44
809.86	7589.77
810.04	7348.11
810.22	7292.82
810.39	7600.01
810.57	7401.36
810.75	7387.02
810.93	7266.19
811.10	7440.27
811.28	7423.89
811.46	7499.66
811.63	7288.72
811.81	7278.48
811.99	7266.19
812.16	7243.67
812.34	7262.10
812.52	7247.76
812.69	7245.71
812.87	7294.86
813.05	7266.19
813.22	7210.90
813.40	7432.08
813.58	7225.23
813.75	7272.34
813.93	7147.41
814.10	7161.75
814.28	7137.17
814.46	6928.28
814.63	6963.09
814.81	7018.39
814.99	7190.42
815.16	6961.05
815.34	7053.20
815.52	7014.29
815.69	6967.19
815.87	6909.85
816.05	6868.89
816.22	6694.81
816.40	6864.79
816.57	6782.87
816.75	6852.50
816.93	7069.59
817.10	6868.89
817.28	6631.32
817.46	6741.91
817.63	6854.55
817.81	6729.63
817.98	6578.08
818.16	6616.99
818.34	6592.41
818.51	6547.36
818.69	6643.61
818.86	6467.49
819.04	6465.44
819.22	6631.32
819.39	6473.63
819.57	6565.79
819.74	6487.96
819.92	6238.11
820.10	6254.50
820.27	6262.69
820.45	6371.23
820.62	6444.96
820.80	6393.76
820.97	6289.31
821.15	6281.12
821.33	6268.83
821.50	6184.87
821.68	6188.96
821.85	6150.05
822.03	6268.83
822.20	6397.85
822.38	6014.88
822.56	6168.48
822.73	6186.91
822.91	6025.12
823.08	5969.83
823.26	6035.36
823.43	6043.56
823.61	5988.26
823.78	6037.41
823.96	5984.16
824.14	5986.21
824.31	5967.78
824.49	5879.72
824.66	5863.33
824.84	5734.31
825.01	5894.05
825.19	5894.05
825.36	5568.43
825.54	5740.46
825.71	5619.63
825.89	5674.92
826.06	5578.67
826.24	5697.45
826.42	5715.88
826.59	5631.91
826.77	5660.59
826.94	5654.44
827.12	5502.89
827.29	5593.00
827.47	5593.00
827.64	5609.39
827.82	5629.87
827.99	5506.99
828.17	5500.84
828.34	5500.84
828.52	5388.21
828.69	5568.43
828.87	5453.74
829.04	5461.93
829.22	5482.41
829.39	5547.95
829.57	5318.57
829.74	5361.58
829.92	5388.21
830.09	5361.58
830.27	5324.72
830.44	5298.10
830.62	5357.49
830.79	5388.21
830.97	5277.62
831.14	5406.64
831.31	5279.66
831.49	5398.45
831.66	5224.37
831.84	5287.86
832.01	5373.87
832.19	5228.46
832.36	5191.60
832.54	5154.74
832.71	5074.87
832.89	5162.93
833.06	4980.66
833.24	5218.22
833.41	5126.07
833.58	5183.41
833.76	5056.43
833.93	5038.00
834.11	5033.91
834.28	5058.48
834.46	4956.08
834.63	4956.08
834.81	5001.14
834.98	4921.27
835.15	4939.70
835.33	5017.52
835.50	4896.69
835.68	4882.36
835.85	4941.75
836.03	4911.03
836.20	4773.82
836.37	4833.21
836.55	4794.29
836.72	4843.45
836.90	4806.58
837.07	4788.15
837.24	4749.24
837.42	4888.50
837.59	4890.55
837.77	4720.57
837.94	4972.47
838.11	4788.15
838.29	4820.92
838.46	4845.49
838.64	4609.98
838.81	4835.25
838.98	4763.58
839.16	4753.34
839.33	4812.73
839.51	4718.52
839.68	4755.38
839.85	4665.27
840.03	4763.58
840.20	4614.07
840.37	4669.37
840.55	4665.27
840.72	4648.89
840.90	4693.94
841.07	4640.70
841.24	4622.27
841.42	4718.52
841.59	4571.07
841.76	4603.83
841.94	4446.14
842.11	4595.64
842.29	4544.44
842.46	4503.48
842.63	4655.03
842.81	4558.78
842.98	4478.91
843.15	4640.70
843.33	4472.76
843.50	4550.59
843.67	4476.86
843.85	4444.09
844.02	4485.05
844.19	4530.11
844.37	4548.54
844.54	4392.89
844.71	4327.36
844.89	4345.79
845.06	4515.77
845.23	4358.08
845.41	4384.70
845.58	4427.71
845.75	4464.57
845.93	4343.74
846.10	4372.41
846.27	4315.07
846.45	4499.39
846.62	4399.04
846.79	4337.60
846.96	4335.55
847.14	4382.65
847.31	4405.18
847.48	4470.72
847.66	4429.76
847.83	4245.44
848.00	4329.41
848.18	4310.97
848.35	4261.82
848.52	4284.35
848.69	4341.69
848.87	4257.73
849.04	4345.79
849.21	4347.84
849.39	4188.10
849.56	4186.05
849.73	4261.82
849.90	4255.68
850.08	4110.27
850.25	4085.70
850.42	4255.68
850.59	4257.73
850.77	4116.42
850.94	4265.92
851.11	4057.03
851.29	4122.56
851.46	4030.40
851.63	4091.84
851.80	4138.94
851.98	4167.62
852.15	4124.61
852.32	4036.55
852.49	4007.87
852.67	3977.16
852.84	4042.69
853.01	3968.96
853.18	3952.58
853.35	4046.79
853.53	3946.44
853.70	3919.81
853.87	3960.77
854.04	3966.92
854.22	4038.59
854.39	4001.73
854.56	3987.40
854.73	3971.01
854.91	3907.52
855.08	4003.78
855.25	3989.44
855.42	3844.04
855.59	3872.71
855.77	3938.24
855.94	3923.91
856.11	3856.33
856.28	3805.13
856.45	3874.76
856.63	3864.52
856.80	3817.41
856.97	3913.67
857.14	4001.73
857.31	3897.28
857.49	3919.81
857.66	3827.65
857.83	3778.50
858.00	3792.84
858.17	3942.34
858.35	3741.64
858.52	3657.67
858.69	3833.80
858.86	3823.56
859.03	3833.80
859.20	3751.88
859.38	3823.56
859.55	3848.13
859.72	3821.51
859.89	3770.31
860.06	3841.99
860.23	3772.36
860.41	3860.42
860.58	3747.78
860.75	3719.11
860.92	3653.58
861.09	3815.37
861.26	3770.31
861.44	3764.17
861.61	3637.19
861.78	3717.06
861.95	3672.01
862.12	3717.06
862.29	3618.76
862.46	3774.41
862.64	3717.06
862.81	3614.66
862.98	3805.13
863.15	3721.16
863.32	3567.56
863.49	3741.64
863.66	3704.78
863.83	3655.62
864.01	3641.29
864.18	3618.76
864.35	3612.62
864.52	3598.28
864.69	3708.87
864.86	3594.19
865.03	3569.61
865.20	3506.12
865.37	3487.69
865.55	3534.79
865.72	3506.12
865.89	3555.27
866.06	3454.92
866.23	3436.49
866.40	3454.92
866.57	3479.50
866.74	3446.73
866.91	3440.59
867.08	3438.54
867.26	3518.41
867.43	3426.25
867.60	3555.27
867.77	3422.16
867.94	3364.81
868.11	3483.59
868.28	3477.45
868.45	3430.35
868.62	3381.20
868.79	3508.17
868.96	3426.25
869.13	3422.16
869.30	3413.96
869.47	3403.72
869.65	3456.97
869.82	3481.55
869.99	3399.63
870.16	3297.23
870.33	3420.11
870.50	3284.94
870.67	3336.14
870.84	3340.24
871.01	3254.22
871.18	3254.22
871.35	3379.15
871.52	3219.41
871.69	3280.85
871.86	3356.62
872.03	3243.98
872.20	3231.69
872.37	3252.17
872.54	3293.13
872.71	3258.32
872.88	3289.04
873.05	3262.41
873.22	3225.55
873.39	3182.54
873.56	3233.74
873.73	3170.26
873.90	3217.36
874.07	3145.68
874.24	3155.92
874.41	3119.06
874.58	3172.30
874.75	3188.69
874.92	3207.12
875.09	3096.53
875.26	3119.06
875.43	3188.69
875.60	3129.30
875.77	3074.00
875.94	3078.10
876.11	3063.76
876.28	3135.44
876.45	2992.08
876.62	3155.92
876.79	3065.81
876.96	3035.09
877.13	3055.57
877.30	2973.65
877.47	3002.32
877.64	2918.36
877.81	2996.18
877.98	3004.37
878.15	3047.38
878.32	2951.12
878.49	3063.76
878.66	2867.16
878.83	2957.27
879.00	3035.09
879.17	3026.90
879.34	3006.42
879.51	2985.94
879.68	2856.92
879.85	3004.37
880.02	2992.08
880.19	2979.79
880.35	2897.88
880.52	2926.55
880.69	2883.54
880.86	2904.02
881.03	2951.12
881.20	2877.40
881.37	2873.30
881.54	2947.03
881.71	2867.16
881.88	2820.05
882.05	2893.78
882.22	2885.59
882.39	2955.22
882.56	2891.73
882.72	2861.01
882.89	2885.59
883.06	2877.40
883.23	2873.30
883.40	2879.44
883.57	2805.72
883.74	2822.10
883.91	2770.90
884.08	2891.73
884.25	2867.16
884.41	2785.24
884.58	2832.34
884.75	2834.39
884.92	2824.15
885.09	2785.24
885.26	2801.62
885.43	2734.04
885.60	2701.27
885.77	2746.33
885.93	2846.68
886.10	2715.61
886.27	2883.54
886.44	2666.46
886.61	2629.59
886.78	2754.52
886.95	2711.51
887.12	2824.15
887.28	2674.65
887.45	2748.37
887.62	2682.84
887.79	2678.74
887.96	2703.32
888.13	2641.88
888.29	2668.50
888.46	2801.62
888.63	2648.02
888.80	2697.17
888.97	2615.26
889.14	2666.46
889.31	2770.90
889.47	2684.89
889.64	2627.54
889.81	2660.31
889.98	2709.46
890.15	2740.18
890.32	2637.78
890.48	2680.79
890.65	2658.26
890.82	2605.02
890.99	2607.06
891.16	2609.11
891.32	2686.94
891.49	2625.50
891.66	2623.45
891.83	2598.87
892.00	2662.36
892.17	2611.16
892.33	2621.40
892.50	2537.43
892.67	2496.47
892.84	2611.16
893.01	2527.19
893.17	2592.73
893.34	2564.06
893.51	2543.58
893.68	2549.72
893.84	2543.58
894.01	2484.19
894.18	2471.90
894.35	2594.78
894.52	2557.91
894.68	2650.07
894.85	2496.47
895.02	2596.82
895.19	2498.52
895.35	2441.18
895.52	2596.82
895.69	2562.01
895.86	2492.38
896.03	2430.94
896.19	2482.14
896.36	2506.71
896.53	2562.01
896.70	2447.32
896.86	2445.27
897.03	2502.62
897.20	2414.56
897.37	2562.01
897.53	2500.57
897.70	2418.65
897.87	2426.84
898.03	2392.03
898.20	2424.80
898.37	2349.02
898.54	2383.84
898.70	2490.33
898.87	2467.80
899.04	2334.68
899.21	2326.49
899.37	2375.64
899.54	2469.85
899.71	2404.32
899.87	2295.77
900.04	2326.49
900.21	2416.60
900.38	2310.11
900.54	2424.80
900.71	2361.31
900.88	2342.88
901.04	2357.21
901.21	2361.31
901.38	2408.41
901.55	2287.58
901.71	2367.45
901.88	2318.30
902.05	2248.67
902.21	2303.96
902.38	2267.10
902.55	2226.14
902.71	2361.31
902.88	2318.30
903.05	2414.56
903.21	2248.67
903.38	2314.20
903.55	2260.96
903.71	2250.72
903.88	2336.73
904.05	2226.14
904.21	2207.71
904.38	2250.72
904.55	2363.36
904.71	2226.14
904.88	2265.05
905.05	2207.71
905.21	2287.58
905.38	2174.94
905.55	2256.86
905.71	2240.48
905.88	2121.70
906.05	2246.62
906.21	2119.65
906.38	2181.09
906.55	2189.28
906.71	2277.34
906.88	2193.37
907.04	2205.66
907.21	2240.48
907.38	2127.84
907.54	2201.57
907.71	2179.04
907.88	2199.52
908.04	2156.51
908.21	2205.66
908.37	2199.52
908.54	2127.84
908.71	2201.57
908.87	2220.00
909.04	2115.55
909.21	2133.98
909.37	2172.89
909.54	2150.37
